object,target,lure1,lure2,baseline,stim_onset,stim_end,response,correct_response,response_onset,RT,subject_ID,block,trial_total,trial_task,trial_type,retrival_type,list
snowflake,Angelina Jolie,NaN,NaN,0.61,17.2251488,17.3047865,NaN,NaN,NaN,,D12,0,1,1,Encoding,NaN,S01
snowflake,Angelina Jolie,NaN,NaN,0.61,18.0526485,18.1102427,,NaN,,,D12,0,2,1,Encoding,NaN,S01
whistle,Bruce Willis,NaN,NaN,0.5,18.6227374,18.704857,NaN,NaN,NaN,,D12,0,3,2,Encoding,NaN,S01
whistle,Bruce Willis,NaN,NaN,0.5,19.4650111,19.5371888,,NaN,,,D12,0,4,2,Encoding,NaN,S01
armor,Daniel Craig,NaN,NaN,0.5,20.0549615,20.1378248,NaN,NaN,NaN,,D12,0,5,3,Encoding,NaN,S01
armor,Daniel Craig,NaN,NaN,0.5,20.6973812,20.7706485,,NaN,,,D12,0,6,3,Encoding,NaN,S01
violin,Lady Diana,NaN,NaN,0.66,21.4381309,21.5210635,NaN,NaN,NaN,,D12,0,7,4,Encoding,NaN,S01
violin,Lady Diana,NaN,NaN,0.66,22.2784827,22.3536724,,NaN,,,D12,0,8,4,Encoding,NaN,S01
sarcophagus,Robert De Niro,NaN,NaN,0.55,22.921068,23.0043169,NaN,NaN,NaN,,D12,0,9,5,Encoding,NaN,S01
sarcophagus,Robert De Niro,NaN,NaN,0.55,23.6746132,23.7537276,,NaN,,,D12,0,10,5,Encoding,NaN,S01
handcuff,Lady Diana,Bruce Willis,Angelina Jolie,0.5,31.3948496,31.4698859,,4,,,D12,0,11,1,Retrieval,Lure,S01
handcuff,Lady Diana,Bruce Willis,Angelina Jolie,0.5,32.2308422,32.3032963,,NaN,,,D12,0,12,1,Retrieval,Lure,S01
candle,Daniel Craig,Bruce Willis,Angelina Jolie,0.54,32.8590709,32.9366647,,4,,,D12,0,13,2,Retrieval,Lure,S01
candle,Daniel Craig,Bruce Willis,Angelina Jolie,0.54,33.694833,33.7697904,,NaN,,,D12,0,14,2,Retrieval,Lure,S01
violin,Lady Diana,Robert De Niro,Daniel Craig,0.66,34.4363026,34.5196729,,2,,,D12,0,15,3,Retrieval,Retrieval,S01
violin,Lady Diana,Robert De Niro,Daniel Craig,0.66,35.1365127,35.2198808,,NaN,,,D12,0,16,3,Retrieval,Retrieval,S01
tape,Lady Diana,Daniel Craig,Robert De Niro,0.53,35.7776648,35.8532546,,4,,,D12,0,17,4,Retrieval,Lure,S01
tape,Lady Diana,Daniel Craig,Robert De Niro,0.53,36.5266563,36.6030607,,NaN,,,D12,0,18,4,Retrieval,Lure,S01
whistle,Bruce Willis,Robert De Niro,Daniel Craig,0.5,37.1200879,37.2031041,,1,,,D12,0,19,5,Retrieval,Retrieval,S01
whistle,Bruce Willis,Robert De Niro,Daniel Craig,0.5,37.8883541,37.9698103,,NaN,,,D12,0,20,5,Retrieval,Retrieval,S01
snowflake,Angelina Jolie,Bruce Willis,Robert De Niro,0.61,38.5912946,38.6697843,,3,,,D12,0,21,6,Retrieval,Retrieval,S01
snowflake,Angelina Jolie,Bruce Willis,Robert De Niro,0.61,39.3463146,39.4195684,,NaN,,,D12,0,22,6,Retrieval,Retrieval,S01
armor,Daniel Craig,Robert De Niro,Bruce Willis,0.5,39.9400488,40.0197303,,2,,,D12,0,23,7,Retrieval,Retrieval,S01
armor,Daniel Craig,Robert De Niro,Bruce Willis,0.5,40.6134007,40.6861861,,NaN,,,D12,0,24,7,Retrieval,Retrieval,S01
sarcophagus,Robert De Niro,Daniel Craig,Bruce Willis,0.55,41.2612822,41.33615,,1,,,D12,0,25,8,Retrieval,Retrieval,S01
sarcophagus,Robert De Niro,Daniel Craig,Bruce Willis,0.55,42.0215924,42.1027068,,NaN,,,D12,0,26,8,Retrieval,Retrieval,S01
dragon_statue,Queen Elizabeth,NaN,NaN,0.55,55.1694564,55.2529715,NaN,NaN,NaN,,D12,1,27,1,Encoding,NaN,S01
dragon_statue,Queen Elizabeth,NaN,NaN,0.55,55.8713758,55.9356722,,NaN,,,D12,1,28,1,Encoding,NaN,S01
cash_register,John Kennedy,NaN,NaN,0.65,56.6033699,56.6867424,NaN,NaN,NaN,,D12,1,29,2,Encoding,NaN,S01
cash_register,John Kennedy,NaN,NaN,0.65,57.4448439,57.5191531,,NaN,,,D12,1,30,2,Encoding,NaN,S01
swimsuit,Hugh Grant,NaN,NaN,0.56,58.0857708,58.1699117,NaN,NaN,NaN,,D12,1,31,3,Encoding,NaN,S01
swimsuit,Hugh Grant,NaN,NaN,0.56,58.6934304,58.7692507,,NaN,,,D12,1,32,3,Encoding,NaN,S01
saltshaker,Zac Effron,NaN,NaN,0.63,59.4196367,59.5027229,NaN,NaN,NaN,,D12,1,33,4,Encoding,NaN,S01
saltshaker,Zac Effron,NaN,NaN,0.63,60.1252336,60.2021596,,NaN,,,D12,1,34,4,Encoding,NaN,S01
flower_pot,Brad Pitt,NaN,NaN,0.65,60.8698099,60.9529249,NaN,NaN,NaN,,D12,1,35,5,Encoding,NaN,S01
flower_pot,Brad Pitt,NaN,NaN,0.65,61.5802104,61.6519394,,NaN,,,D12,1,36,5,Encoding,NaN,S01
yarn,Dwayne Johnson,NaN,NaN,0.52,62.1862239,62.2694037,NaN,NaN,NaN,,D12,1,37,6,Encoding,NaN,S01
yarn,Dwayne Johnson,NaN,NaN,0.52,62.9761316,63.0518453,,NaN,,,D12,1,38,6,Encoding,NaN,S01
pot_of_gold,Drake Graham,NaN,NaN,0.63,63.7023088,63.7858579,NaN,NaN,NaN,,D12,1,39,7,Encoding,NaN,S01
pot_of_gold,Drake Graham,NaN,NaN,0.63,64.5109848,64.5851266,,NaN,,,D12,1,40,7,Encoding,NaN,S01
lantern,Morgan Freeman,NaN,NaN,0.72,65.3193279,65.402517,NaN,NaN,NaN,,D12,1,41,8,Encoding,NaN,S01
lantern,Morgan Freeman,NaN,NaN,0.72,65.9778118,66.051594,,NaN,,,D12,1,42,8,Encoding,NaN,S01
razor,Paris Hilton,NaN,NaN,0.74,66.8026208,66.8859695,NaN,NaN,NaN,,D12,1,43,9,Encoding,NaN,S01
razor,Paris Hilton,NaN,NaN,0.74,67.5237116,67.6017795,,NaN,,,D12,1,44,9,Encoding,NaN,S01
money,Condoliza Rice,NaN,NaN,0.53,68.1515172,68.2348856,NaN,NaN,NaN,,D12,1,45,10,Encoding,NaN,S01
money,Condoliza Rice,NaN,NaN,0.53,68.8515088,68.9348057,,NaN,,,D12,1,46,10,Encoding,NaN,S01
crowbar,Chris Hemsworth,NaN,NaN,0.55,69.5014552,69.5847863,NaN,NaN,NaN,,D12,1,47,11,Encoding,NaN,S01
crowbar,Chris Hemsworth,NaN,NaN,0.55,70.2514513,70.3346845,,NaN,,,D12,1,48,11,Encoding,NaN,S01
chainsaw,Mark Walberg,NaN,NaN,0.64,70.984731,71.067996,NaN,NaN,NaN,,D12,1,49,12,Encoding,NaN,S01
chainsaw,Mark Walberg,NaN,NaN,0.64,71.7680656,71.8513847,,NaN,,,D12,1,50,12,Encoding,NaN,S01
totem_pole,Charlize Therone,NaN,NaN,0.75,72.6180515,72.701375,NaN,NaN,NaN,,D12,1,51,13,Encoding,NaN,S01
totem_pole,Charlize Therone,NaN,NaN,0.75,73.4012434,73.4845119,,NaN,,,D12,1,52,13,Encoding,NaN,S01
pocket_watch,Robert Pattinson,NaN,NaN,0.59,74.084538,74.167898,NaN,NaN,NaN,,D12,1,53,14,Encoding,NaN,S01
pocket_watch,Robert Pattinson,NaN,NaN,0.59,74.7511656,74.8344634,,NaN,,,D12,1,54,14,Encoding,NaN,S01
pot_of_gold,Drake Graham,Hugh Grant,Zac Effron,0.63,77.4844288,77.5677625,,3,,,D12,1,55,1,Retrieval,Retrieval,S01
pot_of_gold,Drake Graham,Hugh Grant,Zac Effron,0.63,78.1179478,78.2012997,,NaN,,,D12,1,56,1,Retrieval,Retrieval,S01
trumpet,Charlize Therone,Condoliza Rice,Zac Effron,0.58,78.8014093,78.8849347,,4,,,D12,1,57,2,Retrieval,Lure,S01
trumpet,Charlize Therone,Condoliza Rice,Zac Effron,0.58,79.5606582,79.6343756,,NaN,,,D12,1,58,2,Retrieval,Lure,S01
flower_pot,Brad Pitt,Zac Effron,Queen Elizabeth,0.65,80.3010577,80.3844693,,1,,,D12,1,59,3,Retrieval,Retrieval,S01
flower_pot,Brad Pitt,Zac Effron,Queen Elizabeth,0.65,81.0418373,81.1176249,,NaN,,,D12,1,60,3,Retrieval,Retrieval,S01
swimsuit,Hugh Grant,Brad Pitt,Zac Effron,0.56,81.6842878,81.7676643,,1,,,D12,1,61,4,Retrieval,Retrieval,S01
swimsuit,Hugh Grant,Brad Pitt,Zac Effron,0.56,82.4303769,82.5008924,,NaN,,,D12,1,62,4,Retrieval,Retrieval,S01
yarn,Dwayne Johnson,Zac Effron,Chris Hemsworth,0.52,83.0399377,83.1175963,,1,,,D12,1,63,5,Retrieval,Retrieval,S01
yarn,Dwayne Johnson,Zac Effron,Chris Hemsworth,0.52,83.8343433,83.9175029,,NaN,,,D12,1,64,5,Retrieval,Retrieval,S01
stroller,Condoliza Rice,Charlize Therone,Drake Graham,0.57,84.5095215,84.5843504,,4,,,D12,1,65,6,Retrieval,Lure,S01
stroller,Condoliza Rice,Charlize Therone,Drake Graham,0.57,85.3373404,85.4175122,,NaN,,,D12,1,66,6,Retrieval,Lure,S01
saltshaker,Zac Effron,Brad Pitt,Charlize Therone,0.63,86.0711393,86.1507821,,3,,,D12,1,67,7,Retrieval,Retrieval,S01
saltshaker,Zac Effron,Brad Pitt,Charlize Therone,0.63,86.8299737,86.900774,,NaN,,,D12,1,68,7,Retrieval,Retrieval,S01
dragon_statue,Queen Elizabeth,Hugh Grant,Brad Pitt,0.55,87.471886,87.5507043,,2,,,D12,1,69,8,Retrieval,Retrieval,S01
dragon_statue,Queen Elizabeth,Hugh Grant,Brad Pitt,0.55,88.2271715,88.3006652,,NaN,,,D12,1,70,8,Retrieval,Retrieval,S01
cash_register,John Kennedy,Zac Effron,Queen Elizabeth,0.65,88.9748201,89.0507446,,2,,,D12,1,71,9,Retrieval,Retrieval,S01
cash_register,John Kennedy,Zac Effron,Queen Elizabeth,0.65,89.7554747,89.8338908,,NaN,,,D12,1,72,9,Retrieval,Retrieval,S01
lantern,Morgan Freeman,Condoliza Rice,Chris Hemsworth,0.72,90.572716,90.6505087,,3,,,D12,1,73,10,Retrieval,Retrieval,S01
lantern,Morgan Freeman,Condoliza Rice,Chris Hemsworth,0.72,91.1890606,91.2671124,,NaN,,,D12,1,74,10,Retrieval,Retrieval,S01
pick,Robert Pattinson,Hugh Grant,Mark Walberg,0.63,91.91974,92.0005513,,4,,,D12,1,75,11,Retrieval,Lure,S01
pick,Robert Pattinson,Hugh Grant,Mark Walberg,0.63,92.754813,92.8339382,,NaN,,,D12,1,76,11,Retrieval,Lure,S01
money,Condoliza Rice,John Kennedy,Chris Hemsworth,0.53,93.3892853,93.4673253,,1,,,D12,1,77,12,Retrieval,Retrieval,S01
money,Condoliza Rice,John Kennedy,Chris Hemsworth,0.53,93.992296,94.06717,,NaN,,,D12,1,78,12,Retrieval,Retrieval,S01
crowbar,Chris Hemsworth,Morgan Freeman,Brad Pitt,0.55,94.6401186,94.7169719,,2,,,D12,1,79,13,Retrieval,Retrieval,S01
crowbar,Chris Hemsworth,Morgan Freeman,Brad Pitt,0.55,95.3248889,95.4004867,,NaN,,,D12,1,80,13,Retrieval,Retrieval,S01
beret,Robert Pattinson,Chris Hemsworth,Zac Effron,0.61,96.0174109,96.1004835,,4,,,D12,1,81,14,Retrieval,Lure,S01
beret,Robert Pattinson,Chris Hemsworth,Zac Effron,0.61,96.6925256,96.7671093,,NaN,,,D12,1,82,14,Retrieval,Lure,S01
razor,Paris Hilton,Brad Pitt,Chris Hemsworth,0.74,97.5238838,97.6002916,,1,,,D12,1,83,15,Retrieval,Retrieval,S01
razor,Paris Hilton,Brad Pitt,Chris Hemsworth,0.74,98.2248648,98.3001218,,NaN,,,D12,1,84,15,Retrieval,Retrieval,S01
chainsaw,Mark Walberg,Chris Hemsworth,Hugh Grant,0.64,98.9562091,99.033698,,1,,,D12,1,85,16,Retrieval,Retrieval,S01
chainsaw,Mark Walberg,Chris Hemsworth,Hugh Grant,0.64,99.5913717,99.6667209,,NaN,,,D12,1,86,16,Retrieval,Retrieval,S01
pocket_watch,Robert Pattinson,Dwayne Johnson,Hugh Grant,0.59,100.272427,100.3502087,,2,,,D12,1,87,17,Retrieval,Retrieval,S01
pocket_watch,Robert Pattinson,Dwayne Johnson,Hugh Grant,0.59,100.8892048,100.9666771,,NaN,,,D12,1,88,17,Retrieval,Retrieval,S01
totem_pole,Charlize Therone,John Kennedy,Queen Elizabeth,0.75,101.7402517,101.8166642,,2,,,D12,1,89,18,Retrieval,Retrieval,S01
totem_pole,Charlize Therone,John Kennedy,Queen Elizabeth,0.75,102.3382906,102.4167078,,NaN,,,D12,1,90,18,Retrieval,Retrieval,S01
cowboy_boot,Jack Nicolson,NaN,NaN,0.52,115.5833726,115.6673607,NaN,NaN,NaN,,D12,2,91,1,Encoding,NaN,S01
cowboy_boot,Jack Nicolson,NaN,NaN,0.52,116.3663358,116.458399,,NaN,,,D12,2,92,1,Encoding,NaN,S01
belt,Lady Gaga,NaN,NaN,0.72,117.1828641,117.2664195,NaN,NaN,NaN,,D12,2,93,2,Encoding,NaN,S01
belt,Lady Gaga,NaN,NaN,0.72,117.987553,118.0659289,,NaN,,,D12,2,94,2,Encoding,NaN,S01
viking_helmet,Arnold Swarzenegger,NaN,NaN,0.6,118.6825169,118.7659681,NaN,NaN,NaN,,D12,2,95,3,Encoding,NaN,S01
viking_helmet,Arnold Swarzenegger,NaN,NaN,0.6,119.499466,119.5824364,,NaN,,,D12,2,96,3,Encoding,NaN,S01
rope,Jackie Chan,NaN,NaN,0.7,120.299302,120.3826814,NaN,NaN,NaN,,D12,2,97,4,Encoding,NaN,S01
rope,Jackie Chan,NaN,NaN,0.7,120.9242887,120.9992307,,NaN,,,D12,2,98,4,Encoding,NaN,S01
cane,Albert Einstein,NaN,NaN,0.71,121.7168725,121.7991997,NaN,NaN,NaN,,D12,2,99,5,Encoding,NaN,S01
cane,Albert Einstein,NaN,NaN,0.71,122.4156241,122.4989077,,NaN,,,D12,2,100,5,Encoding,NaN,S01
cellphone,Tom Cruise,NaN,NaN,0.51,123.0155982,123.0990677,NaN,NaN,NaN,,D12,2,101,6,Encoding,NaN,S01
cellphone,Tom Cruise,NaN,NaN,0.51,123.665543,123.748919,,NaN,,,D12,2,102,6,Encoding,NaN,S01
handbell,Bill Gates,NaN,NaN,0.61,124.3655403,124.448894,NaN,NaN,NaN,,D12,2,103,7,Encoding,NaN,S01
handbell,Bill Gates,NaN,NaN,0.61,125.1655434,125.2490199,,NaN,,,D12,2,104,7,Encoding,NaN,S01
bassoon,Hillary Clinton,NaN,NaN,0.55,125.8155783,125.8989698,NaN,NaN,NaN,,D12,2,105,8,Encoding,NaN,S01
bassoon,Hillary Clinton,NaN,NaN,0.55,126.5159949,126.5990129,,NaN,,,D12,2,106,8,Encoding,NaN,S01
headphone,Scarlett Johansson,NaN,NaN,0.61,127.2154397,127.2987181,NaN,NaN,NaN,,D12,2,107,9,Encoding,NaN,S01
headphone,Scarlett Johansson,NaN,NaN,0.61,128.0530187,128.1323083,,NaN,,,D12,2,108,9,Encoding,NaN,S01
metronome,Sandra Bullock,NaN,NaN,0.65,128.7987703,128.8820138,NaN,NaN,NaN,,D12,2,109,10,Encoding,NaN,S01
metronome,Sandra Bullock,NaN,NaN,0.65,129.4492252,129.5320434,,NaN,,,D12,2,110,10,Encoding,NaN,S01
joystick,Leonardo DiCaprio,NaN,NaN,0.54,130.0823393,130.166323,NaN,NaN,NaN,,D12,2,111,11,Encoding,NaN,S01
joystick,Leonardo DiCaprio,NaN,NaN,0.54,130.7486882,130.8319585,,NaN,,,D12,2,112,11,Encoding,NaN,S01
camera_lens,Nelson Mandela,NaN,NaN,0.59,131.4319306,131.5152199,NaN,NaN,NaN,,D12,2,113,12,Encoding,NaN,S01
camera_lens,Nelson Mandela,NaN,NaN,0.59,132.0652439,132.1484914,,NaN,,,D12,2,114,12,Encoding,NaN,S01
walker,Emma Watson,NaN,NaN,0.59,132.748709,132.832598,NaN,NaN,NaN,,D12,2,115,13,Encoding,NaN,S01
walker,Emma Watson,NaN,NaN,0.59,133.3818243,133.465279,,NaN,,,D12,2,116,13,Encoding,NaN,S01
dryer,Mel Gibson,NaN,NaN,0.74,134.2150854,134.2984776,NaN,NaN,NaN,,D12,2,117,14,Encoding,NaN,S01
dryer,Mel Gibson,NaN,NaN,0.74,135.0318186,135.115345,,NaN,,,D12,2,118,14,Encoding,NaN,S01
rope,Jackie Chan,Nelson Mandela,Mel Gibson,0.7,137.8368165,137.9149664,,3,,,D12,2,119,1,Retrieval,Retrieval,S01
rope,Jackie Chan,Nelson Mandela,Mel Gibson,0.7,138.631557,138.7150914,,NaN,,,D12,2,120,1,Retrieval,Retrieval,S01
safe,Tom Cruise,Jack Nicolson,Jackie Chan,0.63,139.3651181,139.4493183,,4,,,D12,2,121,2,Retrieval,Lure,S01
safe,Tom Cruise,Jack Nicolson,Jackie Chan,0.63,140.0809296,140.1482219,,NaN,,,D12,2,122,2,Retrieval,Lure,S01
viking_helmet,Arnold Swarzenegger,Jackie Chan,Hillary Clinton,0.6,140.764924,140.8483816,,1,,,D12,2,123,3,Retrieval,Retrieval,S01
viking_helmet,Arnold Swarzenegger,Jackie Chan,Hillary Clinton,0.6,141.4149435,141.4983178,,NaN,,,D12,2,124,3,Retrieval,Retrieval,S01
cane,Albert Einstein,Jackie Chan,Arnold Swarzenegger,0.71,142.2148507,142.2985958,,2,,,D12,2,125,4,Retrieval,Retrieval,S01
cane,Albert Einstein,Jackie Chan,Arnold Swarzenegger,0.71,143.0544551,143.1314097,,NaN,,,D12,2,126,4,Retrieval,Retrieval,S01
belt,Lady Gaga,Leonardo DiCaprio,Scarlett Johansson,0.72,143.8647518,143.9481594,,3,,,D12,2,127,5,Retrieval,Retrieval,S01
belt,Lady Gaga,Leonardo DiCaprio,Scarlett Johansson,0.72,144.5480524,144.6312688,,NaN,,,D12,2,128,5,Retrieval,Retrieval,S01
handbell,Bill Gates,Leonardo DiCaprio,Tom Cruise,0.61,145.2479778,145.3312328,,3,,,D12,2,129,6,Retrieval,Retrieval,S01
handbell,Bill Gates,Leonardo DiCaprio,Tom Cruise,0.61,146.0480289,146.1312934,,NaN,,,D12,2,130,6,Retrieval,Retrieval,S01
cigar,Hillary Clinton,Jack Nicolson,Nelson Mandela,0.57,146.714677,146.7979462,,4,,,D12,2,131,7,Retrieval,Lure,S01
cigar,Hillary Clinton,Jack Nicolson,Nelson Mandela,0.57,147.3395903,147.4146213,,NaN,,,D12,2,132,7,Retrieval,Lure,S01
cowboy_boot,Jack Nicolson,Tom Cruise,Lady Gaga,0.52,147.9482033,148.0312728,,1,,,D12,2,133,8,Retrieval,Retrieval,S01
cowboy_boot,Jack Nicolson,Tom Cruise,Lady Gaga,0.52,148.6842285,148.7644153,,NaN,,,D12,2,134,8,Retrieval,Retrieval,S01
cellphone,Tom Cruise,Leonardo DiCaprio,Scarlett Johansson,0.51,149.2812498,149.364593,,1,,,D12,2,135,9,Retrieval,Retrieval,S01
cellphone,Tom Cruise,Leonardo DiCaprio,Scarlett Johansson,0.51,150.0811937,150.164532,,NaN,,,D12,2,136,9,Retrieval,Retrieval,S01
metronome,Sandra Bullock,Mel Gibson,Jackie Chan,0.65,150.8312234,150.9143324,,1,,,D12,2,137,10,Retrieval,Retrieval,S01
metronome,Sandra Bullock,Mel Gibson,Jackie Chan,0.65,151.5834461,151.6643503,,NaN,,,D12,2,138,10,Retrieval,Retrieval,S01
dryer,Mel Gibson,Arnold Swarzenegger,Sandra Bullock,0.74,152.4143386,152.497815,,3,,,D12,2,139,11,Retrieval,Retrieval,S01
dryer,Mel Gibson,Arnold Swarzenegger,Sandra Bullock,0.74,153.1519183,153.2310142,,NaN,,,D12,2,140,11,Retrieval,Retrieval,S01
scoop,Sandra Bullock,Tom Cruise,Emma Watson,0.67,153.9146898,153.9976952,,4,,,D12,2,141,12,Retrieval,Lure,S01
scoop,Sandra Bullock,Tom Cruise,Emma Watson,0.67,154.6809721,154.7645203,,NaN,,,D12,2,142,12,Retrieval,Lure,S01
walker,Emma Watson,Jackie Chan,Scarlett Johansson,0.59,155.3641908,155.4475764,,1,,,D12,2,143,13,Retrieval,Retrieval,S01
walker,Emma Watson,Jackie Chan,Scarlett Johansson,0.59,156.1757319,156.2473646,,NaN,,,D12,2,144,13,Retrieval,Retrieval,S01
joystick,Leonardo DiCaprio,Emma Watson,Scarlett Johansson,0.54,156.7976155,156.8809605,,1,,,D12,2,145,14,Retrieval,Retrieval,S01
joystick,Leonardo DiCaprio,Emma Watson,Scarlett Johansson,0.54,157.514257,157.5977541,,NaN,,,D12,2,146,14,Retrieval,Retrieval,S01
bassoon,Hillary Clinton,Leonardo DiCaprio,Tom Cruise,0.55,158.1683248,158.2475713,,2,,,D12,2,147,15,Retrieval,Retrieval,S01
bassoon,Hillary Clinton,Leonardo DiCaprio,Tom Cruise,0.55,158.8974852,158.9807901,,NaN,,,D12,2,148,15,Retrieval,Retrieval,S01
inkwell,Hillary Clinton,Sandra Bullock,Scarlett Johansson,0.68,159.6809462,159.7641573,,4,,,D12,2,149,16,Retrieval,Lure,S01
inkwell,Hillary Clinton,Sandra Bullock,Scarlett Johansson,0.68,160.4360729,160.5139508,,NaN,,,D12,2,150,16,Retrieval,Lure,S01
camera_lens,Nelson Mandela,Arnold Swarzenegger,Bill Gates,0.59,161.114055,161.1972828,,1,,,D12,2,151,17,Retrieval,Retrieval,S01
camera_lens,Nelson Mandela,Arnold Swarzenegger,Bill Gates,0.59,161.7971772,161.8808325,,NaN,,,D12,2,152,17,Retrieval,Retrieval,S01
headphone,Scarlett Johansson,Tom Cruise,Jack Nicolson,0.61,162.4994099,162.5805683,,3,,,D12,2,153,18,Retrieval,Retrieval,S01
headphone,Scarlett Johansson,Tom Cruise,Jack Nicolson,0.61,163.2471444,163.3304562,,NaN,,,D12,2,154,18,Retrieval,Retrieval,S01
hollywood_star,Jennifer Lopez,NaN,NaN,0.64,179.9972341,180.0799677,NaN,NaN,NaN,,D12,3,155,1,Encoding,NaN,S01
hollywood_star,Jennifer Lopez,NaN,NaN,0.64,180.7464163,180.8297994,,NaN,,,D12,3,156,1,Encoding,NaN,S01
tambourine,Matt Damon,NaN,NaN,0.73,181.5804297,181.6630213,NaN,NaN,NaN,,D12,3,157,2,Encoding,NaN,S01
tambourine,Matt Damon,NaN,NaN,0.73,182.2377797,182.3128961,,NaN,,,D12,3,158,2,Encoding,NaN,S01
mixer,Kanye West,NaN,NaN,0.69,183.0138438,183.0965602,NaN,NaN,NaN,,D12,3,159,3,Encoding,NaN,S01
mixer,Kanye West,NaN,NaN,0.69,183.6963146,183.7796838,UpArrow,NaN,183.7041215,,D12,3,160,3,Encoding,NaN,S01
radio,Donald Trump,NaN,NaN,0.58,184.3804907,184.4635516,NaN,NaN,NaN,,D12,3,161,4,Encoding,NaN,S01
radio,Donald Trump,NaN,NaN,0.58,185.0961888,185.1795732,DownArrow,NaN,185.1193539,,D12,3,162,4,Encoding,NaN,S01
stamp,Joe Biden,NaN,NaN,0.59,185.7803871,185.8629192,NaN,NaN,NaN,,D12,3,163,5,Encoding,NaN,S01
stamp,Joe Biden,NaN,NaN,0.59,186.4296228,186.5128643,DownArrow,NaN,186.5025476,,D12,3,164,5,Encoding,NaN,S01
telescope,Tom Hanks,NaN,NaN,0.61,187.1295134,187.2129713,NaN,NaN,NaN,,D12,3,165,6,Encoding,NaN,S01
telescope,Tom Hanks,NaN,NaN,0.61,187.929648,188.0129036,DownArrow,NaN,187.9709422,,D12,3,166,6,Encoding,NaN,S01
bowl,Dalai Lama,NaN,NaN,0.69,188.7136432,188.7969774,NaN,NaN,NaN,,D12,3,167,7,Encoding,NaN,S01
bowl,Dalai Lama,NaN,NaN,0.69,189.3628131,189.4461455,RightArrow,NaN,189.435764,,D12,3,168,7,Encoding,NaN,S01
toothbrush,Gerard Butler,NaN,NaN,0.64,190.0959539,190.1793986,NaN,NaN,NaN,,D12,3,169,8,Encoding,NaN,S01
toothbrush,Gerard Butler,NaN,NaN,0.64,190.746042,190.8292507,LeftArrow,NaN,190.7866666,,D12,3,170,8,Encoding,NaN,S01
organ,Vladimir Putin,NaN,NaN,0.53,191.3795023,191.4625109,NaN,NaN,NaN,,D12,3,171,9,Encoding,NaN,S01
organ,Vladimir Putin,NaN,NaN,0.53,192.0126506,192.0957618,LeftArrow,NaN,192.085652,,D12,3,172,9,Encoding,NaN,S01
pushpin,Rowan Attkinson,NaN,NaN,0.74,192.8462383,192.9296625,NaN,NaN,NaN,,D12,3,173,10,Encoding,NaN,S01
pushpin,Rowan Attkinson,NaN,NaN,0.74,193.4958138,193.579295,RightArrow,NaN,193.5685516,,D12,3,174,10,Encoding,NaN,S01
grater,Selena Gomez,NaN,NaN,0.72,194.312436,194.3958553,NaN,NaN,NaN,,D12,3,175,11,Encoding,NaN,S01
grater,Selena Gomez,NaN,NaN,0.72,195.0125713,195.0959508,LeftArrow,NaN,195.0865753,,D12,3,176,11,Encoding,NaN,S01
french_press,Jason Statham,NaN,NaN,0.59,195.6961363,195.7796895,NaN,NaN,NaN,,D12,3,177,12,Encoding,NaN,S01
french_press,Jason Statham,NaN,NaN,0.59,196.3789077,196.4622385,LeftArrow,NaN,196.4533164,,D12,3,178,12,Encoding,NaN,S01
globe,Mariah Carey,NaN,NaN,0.71,197.1790826,197.2624756,NaN,NaN,NaN,,D12,3,179,13,Encoding,NaN,S01
globe,Mariah Carey,NaN,NaN,0.71,198.0121128,198.0955815,,NaN,,,D12,3,180,13,Encoding,NaN,S01
lock_cutters,Taylor Lautner,NaN,NaN,0.63,198.746047,198.8289519,NaN,NaN,NaN,,D12,3,181,14,Encoding,NaN,S01
lock_cutters,Taylor Lautner,NaN,NaN,0.63,199.4453424,199.5287141,,NaN,,,D12,3,182,14,Encoding,NaN,S01
tambourine,Matt Damon,Joe Biden,Mariah Carey,0.73,202.2790165,202.3618884,,1,,,D12,3,183,1,Retrieval,Retrieval,S01
tambourine,Matt Damon,Joe Biden,Mariah Carey,0.73,202.9786842,203.0618494,,NaN,,,D12,3,184,1,Retrieval,Retrieval,S01
bowl,Dalai Lama,Jennifer Lopez,Joe Biden,0.69,203.7627703,203.8451289,,1,,,D12,3,185,2,Retrieval,Retrieval,S01
bowl,Dalai Lama,Jennifer Lopez,Joe Biden,0.69,204.5120367,204.5951156,,NaN,,,D12,3,186,2,Retrieval,Retrieval,S01
mixer,Kanye West,Donald Trump,Taylor Lautner,0.69,205.2960872,205.378611,,1,,,D12,3,187,3,Retrieval,Retrieval,S01
mixer,Kanye West,Donald Trump,Taylor Lautner,0.69,205.9452502,206.028735,,NaN,,,D12,3,188,3,Retrieval,Retrieval,S01
stamp,Joe Biden,Rowan Attkinson,Gerard Butler,0.59,206.6315033,206.7119323,,1,,,D12,3,189,4,Retrieval,Retrieval,S01
stamp,Joe Biden,Rowan Attkinson,Gerard Butler,0.59,207.3285856,207.4118855,,NaN,,,D12,3,190,4,Retrieval,Retrieval,S01
hollywood_star,Jennifer Lopez,Mariah Carey,Dalai Lama,0.64,208.0644984,208.1452432,,3,,,D12,3,191,5,Retrieval,Retrieval,S01
hollywood_star,Jennifer Lopez,Mariah Carey,Dalai Lama,0.64,208.8615547,208.9449039,,NaN,,,D12,3,192,5,Retrieval,Retrieval,S01
accordion,Kanye West,Vladimir Putin,Gerard Butler,0.52,209.478415,209.5615707,,4,,,D12,3,193,6,Retrieval,Lure,S01
accordion,Kanye West,Vladimir Putin,Gerard Butler,0.52,210.1993592,210.2781446,,NaN,,,D12,3,194,6,Retrieval,Lure,S01
shaker,Jennifer Lopez,Donald Trump,Kanye West,0.68,210.9783419,211.0614297,,4,,,D12,3,195,7,Retrieval,Lure,S01
shaker,Jennifer Lopez,Donald Trump,Kanye West,0.68,211.8115208,211.8947787,,NaN,,,D12,3,196,7,Retrieval,Lure,S01
radio,Donald Trump,Kanye West,Gerard Butler,0.58,212.4949783,212.5782117,,3,,,D12,3,197,8,Retrieval,Retrieval,S01
radio,Donald Trump,Kanye West,Gerard Butler,0.58,213.2145449,213.2948974,,NaN,,,D12,3,198,8,Retrieval,Retrieval,S01
telescope,Tom Hanks,Joe Biden,Selena Gomez,0.61,213.9126361,213.9948242,,2,,,D12,3,199,9,Retrieval,Retrieval,S01
telescope,Tom Hanks,Joe Biden,Selena Gomez,0.61,214.5947061,214.6779291,,NaN,,,D12,3,200,9,Retrieval,Retrieval,S01
lock_cutters,Taylor Lautner,Dalai Lama,Gerard Butler,0.63,215.3278589,215.4112352,,3,,,D12,3,201,10,Retrieval,Retrieval,S01
lock_cutters,Taylor Lautner,Dalai Lama,Gerard Butler,0.63,216.1611947,216.2444759,,NaN,,,D12,3,202,10,Retrieval,Retrieval,S01
globe,Mariah Carey,Dalai Lama,Gerard Butler,0.71,216.9617408,217.044536,,3,,,D12,3,203,11,Retrieval,Retrieval,S01
globe,Mariah Carey,Dalai Lama,Gerard Butler,0.71,217.644436,217.7279871,,NaN,,,D12,3,204,11,Retrieval,Retrieval,S01
grater,Selena Gomez,Dalai Lama,Donald Trump,0.72,218.4619336,218.5444641,,2,,,D12,3,205,12,Retrieval,Retrieval,S01
grater,Selena Gomez,Dalai Lama,Donald Trump,0.72,219.0949595,219.1780764,,NaN,,,D12,3,206,12,Retrieval,Retrieval,S01
corkscrew,Dalai Lama,Kanye West,Jennifer Lopez,0.56,219.7479366,219.8278245,,4,,,D12,3,207,13,Retrieval,Lure,S01
corkscrew,Dalai Lama,Kanye West,Jennifer Lopez,0.56,220.5352483,220.6111274,,NaN,,,D12,3,208,13,Retrieval,Lure,S01
toothbrush,Gerard Butler,Mariah Carey,Tom Hanks,0.64,221.2610259,221.3443086,,3,,,D12,3,209,14,Retrieval,Retrieval,S01
toothbrush,Gerard Butler,Mariah Carey,Tom Hanks,0.64,222.0358829,222.1112514,,NaN,,,D12,3,210,14,Retrieval,Retrieval,S01
pushpin,Rowan Attkinson,Tom Hanks,Taylor Lautner,0.74,222.8611642,222.9444674,,2,,,D12,3,211,15,Retrieval,Retrieval,S01
pushpin,Rowan Attkinson,Tom Hanks,Taylor Lautner,0.74,223.5947207,223.6778313,,NaN,,,D12,3,212,15,Retrieval,Retrieval,S01
french_press,Jason Statham,Taylor Lautner,Joe Biden,0.59,224.2779172,224.3611533,,1,,,D12,3,213,16,Retrieval,Retrieval,S01
french_press,Jason Statham,Taylor Lautner,Joe Biden,0.59,225.0281353,225.1112816,,NaN,,,D12,3,214,16,Retrieval,Retrieval,S01
bowler_hat,Joe Biden,Rowan Attkinson,Jennifer Lopez,0.51,225.6273286,225.7107467,,4,,,D12,3,215,17,Retrieval,Lure,S01
bowler_hat,Joe Biden,Rowan Attkinson,Jennifer Lopez,0.51,226.2775988,226.3608826,,NaN,,,D12,3,216,17,Retrieval,Lure,S01
organ,Vladimir Putin,Kanye West,Selena Gomez,0.53,226.9110419,226.9940745,,2,,,D12,3,217,18,Retrieval,Retrieval,S01
organ,Vladimir Putin,Kanye West,Selena Gomez,0.53,227.6274352,227.7109768,,NaN,,,D12,3,218,18,Retrieval,Retrieval,S01
pinata,Barack Obama,NaN,NaN,0.57,244.4276994,244.5103541,NaN,NaN,NaN,,D12,4,219,1,Encoding,NaN,S01
pinata,Barack Obama,NaN,NaN,0.57,245.0679196,245.143673,,NaN,,,D12,4,220,1,Encoding,NaN,S01
hourglass,Cara Delevingne,NaN,NaN,0.69,245.8431055,245.9264561,NaN,NaN,NaN,,D12,4,221,2,Encoding,NaN,S01
hourglass,Cara Delevingne,NaN,NaN,0.69,246.6763808,246.7599803,,NaN,,,D12,4,222,2,Encoding,NaN,S01
musical_keyboard,Sean Connery,NaN,NaN,0.68,247.460031,247.5435441,NaN,NaN,NaN,,D12,4,223,3,Encoding,NaN,S01
musical_keyboard,Sean Connery,NaN,NaN,0.68,248.2455455,248.3263945,,NaN,,,D12,4,224,3,Encoding,NaN,S01
oil_can,Will Smith,NaN,NaN,0.56,248.8933418,248.9763378,NaN,NaN,NaN,,D12,4,225,4,Encoding,NaN,S01
oil_can,Will Smith,NaN,NaN,0.56,249.6263399,249.7096709,,NaN,,,D12,4,226,4,Encoding,NaN,S01
saxophone,Muammar Gaddafi,NaN,NaN,0.52,250.243946,250.3263628,NaN,NaN,NaN,,D12,4,227,5,Encoding,NaN,S01
saxophone,Muammar Gaddafi,NaN,NaN,0.52,250.9595453,251.0429673,,NaN,,,D12,4,228,5,Encoding,NaN,S01
mask,Julia Roberts,NaN,NaN,0.69,251.7428821,251.8263675,NaN,NaN,NaN,,D12,4,229,6,Encoding,NaN,S01
mask,Julia Roberts,NaN,NaN,0.69,252.354484,252.4261097,,NaN,,,D12,4,230,6,Encoding,NaN,S01
microphone,Denzel Washington,NaN,NaN,0.52,252.9600888,253.0436236,NaN,NaN,NaN,,D12,4,231,7,Encoding,NaN,S01
microphone,Denzel Washington,NaN,NaN,0.52,253.7344193,253.8096803,,NaN,,,D12,4,232,7,Encoding,NaN,S01
thimble,Cameron Diaz,NaN,NaN,0.67,254.4935245,254.5765847,NaN,NaN,NaN,,D12,4,233,8,Encoding,NaN,S01
thimble,Cameron Diaz,NaN,NaN,0.67,255.0927714,255.1764152,,NaN,,,D12,4,234,8,Encoding,NaN,S01
wrench,Nicolas Cage,NaN,NaN,0.72,255.9104236,255.9937871,NaN,NaN,NaN,,D12,4,235,9,Encoding,NaN,S01
wrench,Nicolas Cage,NaN,NaN,0.72,256.5261223,256.6092853,,NaN,,,D12,4,236,9,Encoding,NaN,S01
axe,Britney Spears,NaN,NaN,0.73,257.3592956,257.4427284,NaN,NaN,NaN,,D12,4,237,10,Encoding,NaN,S01
axe,Britney Spears,NaN,NaN,0.73,258.0926804,258.1762021,,NaN,,,D12,4,238,10,Encoding,NaN,S01
rolling_pin,Harrison Ford,NaN,NaN,0.66,258.8433408,258.9265023,NaN,NaN,NaN,,D12,4,239,11,Encoding,NaN,S01
rolling_pin,Harrison Ford,NaN,NaN,0.66,259.4652719,259.5428248,,NaN,,,D12,4,240,11,Encoding,NaN,S01
gear,Katy Perry,NaN,NaN,0.61,260.1600505,260.242805,NaN,NaN,NaN,,D12,4,241,12,Encoding,NaN,S01
gear,Katy Perry,NaN,NaN,0.61,260.959774,261.0431716,,NaN,,,D12,4,242,12,Encoding,NaN,S01
fan,George Clooney,NaN,NaN,0.56,261.6099795,261.693206,NaN,NaN,NaN,,D12,4,243,13,Encoding,NaN,S01
fan,George Clooney,NaN,NaN,0.56,262.4093097,262.4963525,control,NaN,262.4826283,,D12,4,244,13,Encoding,NaN,S01
tanktop,Madonna Louise,NaN,NaN,0.5,263.0096192,263.0929001,NaN,NaN,NaN,,D12,4,245,14,Encoding,NaN,S01
tanktop,Madonna Louise,NaN,NaN,0.5,263.7995925,263.8759588,,NaN,,,D12,4,246,14,Encoding,NaN,S01
slot_machine,Harrison Ford,Cameron Diaz,George Clooney,0.68,266.5757555,266.6590895,,4,,,D12,4,247,1,Retrieval,Lure,S01
slot_machine,Harrison Ford,Cameron Diaz,George Clooney,0.68,267.4100295,267.4923566,,NaN,,,D12,4,248,1,Retrieval,Lure,S01
saxophone,Muammar Gaddafi,Katy Perry,Cameron Diaz,0.52,268.0259841,268.1089259,,2,,,D12,4,249,2,Retrieval,Retrieval,S01
saxophone,Muammar Gaddafi,Katy Perry,Cameron Diaz,0.52,268.7348097,268.8090197,,NaN,,,D12,4,250,2,Retrieval,Retrieval,S01
musical_keyboard,Sean Connery,Nicolas Cage,Cameron Diaz,0.68,269.516018,269.5923145,,3,,,D12,4,251,3,Retrieval,Retrieval,S01
musical_keyboard,Sean Connery,Nicolas Cage,Cameron Diaz,0.68,270.1419957,270.2252244,,NaN,,,D12,4,252,3,Retrieval,Retrieval,S01
pinata,Barack Obama,George Clooney,Cara Delevingne,0.57,270.8087528,270.8919438,,1,,,D12,4,253,4,Retrieval,Retrieval,S01
pinata,Barack Obama,George Clooney,Cara Delevingne,0.57,271.4254405,271.5088487,,NaN,,,D12,4,254,4,Retrieval,Retrieval,S01
microphone,Denzel Washington,Cameron Diaz,Harrison Ford,0.52,272.0421823,272.125167,,1,,,D12,4,255,5,Retrieval,Retrieval,S01
microphone,Denzel Washington,Cameron Diaz,Harrison Ford,0.52,272.7919683,272.8754423,,NaN,,,D12,4,256,5,Retrieval,Retrieval,S01
mask,Julia Roberts,Britney Spears,Will Smith,0.69,273.5805261,273.658704,,3,,,D12,4,257,6,Retrieval,Retrieval,S01
mask,Julia Roberts,Britney Spears,Will Smith,0.69,274.1754301,274.258619,,NaN,,,D12,4,258,6,Retrieval,Retrieval,S01
anchor,Denzel Washington,George Clooney,Julia Roberts,0.63,274.9086832,274.9919032,,4,,,D12,4,259,7,Retrieval,Lure,S01
anchor,Denzel Washington,George Clooney,Julia Roberts,0.63,275.5919546,275.6750766,,NaN,,,D12,4,260,7,Retrieval,Lure,S01
oil_can,Will Smith,Denzel Washington,Muammar Gaddafi,0.56,276.2419293,276.3251539,,1,,,D12,4,261,8,Retrieval,Retrieval,S01
oil_can,Will Smith,Denzel Washington,Muammar Gaddafi,0.56,277.0749627,277.1583784,,NaN,,,D12,4,262,8,Retrieval,Retrieval,S01
hourglass,Cara Delevingne,Muammar Gaddafi,Nicolas Cage,0.69,277.8585423,277.9418006,,3,,,D12,4,263,9,Retrieval,Retrieval,S01
hourglass,Cara Delevingne,Muammar Gaddafi,Nicolas Cage,0.69,278.525254,278.6086809,,NaN,,,D12,4,264,9,Retrieval,Retrieval,S01
axe,Britney Spears,Katy Perry,Madonna Louise,0.73,279.3585095,279.4420095,,1,,,D12,4,265,10,Retrieval,Retrieval,S01
axe,Britney Spears,Katy Perry,Madonna Louise,0.73,280.0614701,280.1420312,,NaN,,,D12,4,266,10,Retrieval,Retrieval,S01
dress_shoe,Katy Perry,George Clooney,Britney Spears,0.52,280.6754617,280.7586309,,4,,,D12,4,267,11,Retrieval,Lure,S01
dress_shoe,Katy Perry,George Clooney,Britney Spears,0.52,281.4420131,281.5253674,,NaN,,,D12,4,268,11,Retrieval,Lure,S01
thimble,Cameron Diaz,Katy Perry,George Clooney,0.67,282.2082459,282.2917786,,1,,,D12,4,269,12,Retrieval,Retrieval,S01
thimble,Cameron Diaz,Katy Perry,George Clooney,0.67,282.8490291,282.9250614,,NaN,,,D12,4,270,12,Retrieval,Retrieval,S01
rolling_pin,Harrison Ford,Nicolas Cage,Will Smith,0.66,283.5918256,283.6752905,,1,,,D12,4,271,13,Retrieval,Retrieval,S01
rolling_pin,Harrison Ford,Nicolas Cage,Will Smith,0.66,284.1915843,284.2751946,,NaN,,,D12,4,272,13,Retrieval,Retrieval,S01
computer_mouse,Cara Delevingne,Harrison Ford,Denzel Washington,0.52,284.8082861,284.8916419,,4,,,D12,4,273,14,Retrieval,Lure,S01
computer_mouse,Cara Delevingne,Harrison Ford,Denzel Washington,0.52,285.4583651,285.5416847,,NaN,,,D12,4,274,14,Retrieval,Lure,S01
fan,George Clooney,Julia Roberts,Denzel Washington,0.56,286.1119345,286.1917399,,1,,,D12,4,275,15,Retrieval,Retrieval,S01
fan,George Clooney,Julia Roberts,Denzel Washington,0.56,286.7414002,286.8252445,,NaN,,,D12,4,276,15,Retrieval,Retrieval,S01
tanktop,Madonna Louise,Sean Connery,Will Smith,0.5,287.341173,287.4244744,,3,,,D12,4,277,16,Retrieval,Retrieval,S01
tanktop,Madonna Louise,Sean Connery,Will Smith,0.5,288.0018637,288.075145,,NaN,,,D12,4,278,16,Retrieval,Retrieval,S01
gear,Katy Perry,Madonna Louise,Nicolas Cage,0.61,288.6916983,288.7747918,,2,,,D12,4,279,17,Retrieval,Retrieval,S01
gear,Katy Perry,Madonna Louise,Nicolas Cage,0.61,289.4416082,289.5247056,,NaN,,,D12,4,280,17,Retrieval,Retrieval,S01
wrench,Nicolas Cage,George Clooney,Barack Obama,0.72,290.258143,290.3414217,,1,,,D12,4,281,18,Retrieval,Retrieval,S01
wrench,Nicolas Cage,George Clooney,Barack Obama,0.72,290.9084465,290.9917561,,NaN,,,D12,4,282,18,Retrieval,Retrieval,S01
hand_saw,Sarah Palin,NaN,NaN,0.69,305.357321,305.4406325,NaN,NaN,NaN,,D12,5,283,1,Encoding,NaN,S01
hand_saw,Sarah Palin,NaN,NaN,0.69,306.0241297,306.1073317,,NaN,,,D12,5,284,1,Encoding,NaN,S01
carabiner,Justin Bieber,NaN,NaN,0.74,306.8579201,306.9405971,NaN,NaN,NaN,,D12,5,285,2,Encoding,NaN,S01
carabiner,Justin Bieber,NaN,NaN,0.74,307.6071971,307.6906587,,NaN,,,D12,5,286,2,Encoding,NaN,S01
plunger,Oprah Winfrey,NaN,NaN,0.54,308.2402044,308.3237117,NaN,NaN,NaN,,D12,5,287,3,Encoding,NaN,S01
plunger,Oprah Winfrey,NaN,NaN,0.54,308.9072533,308.9904389,,NaN,,,D12,5,288,3,Encoding,NaN,S01
swiss_army_knife,Charlie Chaplin,NaN,NaN,0.55,309.5568698,309.6401934,NaN,NaN,NaN,,D12,5,289,4,Encoding,NaN,S01
swiss_army_knife,Charlie Chaplin,NaN,NaN,0.55,310.3568805,310.4401499,,NaN,,,D12,5,290,4,Encoding,NaN,S01
cowbell,Daniel Radcliffe,NaN,NaN,0.67,311.123529,311.206979,NaN,NaN,NaN,,D12,5,291,5,Encoding,NaN,S01
cowbell,Daniel Radcliffe,NaN,NaN,0.67,311.9734154,312.0567388,,NaN,,,D12,5,292,5,Encoding,NaN,S01
disk,Mother Teresa,NaN,NaN,0.55,312.6234111,312.7067803,NaN,NaN,NaN,,D12,5,293,6,Encoding,NaN,S01
disk,Mother Teresa,NaN,NaN,0.55,313.4068979,313.4902456,,NaN,,,D12,5,294,6,Encoding,NaN,S01
laptop,Steve Jobs,NaN,NaN,0.5,314.0075182,314.0906583,NaN,NaN,NaN,,D12,5,295,7,Encoding,NaN,S01
laptop,Steve Jobs,NaN,NaN,0.5,314.6901402,314.7735101,,NaN,,,D12,5,296,7,Encoding,NaN,S01
headband,Nicole Kidman,NaN,NaN,0.54,315.3234498,315.4072132,NaN,NaN,NaN,,D12,5,297,8,Encoding,NaN,S01
headband,Nicole Kidman,NaN,NaN,0.54,316.0794459,316.1568348,,NaN,,,D12,5,298,8,Encoding,NaN,S01
syringe,Robin Williams,NaN,NaN,0.65,316.8232423,316.906665,NaN,NaN,NaN,,D12,5,299,9,Encoding,NaN,S01
syringe,Robin Williams,NaN,NaN,0.65,317.4568224,317.5400641,,NaN,,,D12,5,300,9,Encoding,NaN,S01
harp,Taylor Swift,NaN,NaN,0.66,318.2064913,318.2900385,NaN,NaN,NaN,,D12,5,301,10,Encoding,NaN,S01
harp,Taylor Swift,NaN,NaN,0.66,319.0470869,319.1232775,,NaN,,,D12,5,302,10,Encoding,NaN,S01
coin,Keira Knightley,NaN,NaN,0.64,319.7740348,319.8563976,NaN,NaN,NaN,,D12,5,303,11,Encoding,NaN,S01
coin,Keira Knightley,NaN,NaN,0.64,320.595301,320.6733203,,NaN,,,D12,5,304,11,Encoding,NaN,S01
blouse,George Bush,NaN,NaN,0.67,321.3564411,321.4397485,NaN,NaN,NaN,,D12,5,305,12,Encoding,NaN,S01
blouse,George Bush,NaN,NaN,0.67,322.1606365,322.2397923,,NaN,,,D12,5,306,12,Encoding,NaN,S01
trowel,Stephen Hawking,NaN,NaN,0.72,322.9737477,323.0570336,NaN,NaN,NaN,,D12,5,307,13,Encoding,NaN,S01
trowel,Stephen Hawking,NaN,NaN,0.72,323.6478809,323.7230683,,NaN,,,D12,5,308,13,Encoding,NaN,S01
acoustic_guitar,Jim Carrey,NaN,NaN,0.69,324.4236225,324.5072203,NaN,NaN,NaN,,D12,5,309,14,Encoding,NaN,S01
acoustic_guitar,Jim Carrey,NaN,NaN,0.69,325.1750974,325.2563396,,NaN,,,D12,5,310,14,Encoding,NaN,S01
hand_saw,Sarah Palin,Steve Jobs,Mother Teresa,0.69,327.9562109,328.0394378,,1,,,D12,5,311,1,Retrieval,Retrieval,S01
hand_saw,Sarah Palin,Steve Jobs,Mother Teresa,0.69,328.5976608,328.6728714,,NaN,,,D12,5,312,1,Retrieval,Retrieval,S01
disk,Mother Teresa,Sarah Palin,Robin Williams,0.55,329.2392926,329.3226254,,2,,,D12,5,313,2,Retrieval,Retrieval,S01
disk,Mother Teresa,Sarah Palin,Robin Williams,0.55,329.9942082,330.0726468,,NaN,,,D12,5,314,2,Retrieval,Retrieval,S01
cowbell,Daniel Radcliffe,Keira Knightley,Oprah Winfrey,0.67,330.7627307,330.839537,,1,,,D12,5,315,3,Retrieval,Retrieval,S01
cowbell,Daniel Radcliffe,Keira Knightley,Oprah Winfrey,0.67,331.5096398,331.5894544,,NaN,,,D12,5,316,3,Retrieval,Retrieval,S01
flask,Justin Bieber,Mother Teresa,Stephen Hawking,0.75,332.3630507,332.4393158,,4,,,D12,5,317,4,Retrieval,Lure,S01
flask,Justin Bieber,Mother Teresa,Stephen Hawking,0.75,333.0943428,333.1726926,,NaN,,,D12,5,318,4,Retrieval,Lure,S01
plunger,Oprah Winfrey,Robin Williams,Mother Teresa,0.54,333.7280085,333.8061364,,2,,,D12,5,319,5,Retrieval,Retrieval,S01
plunger,Oprah Winfrey,Robin Williams,Mother Teresa,0.54,334.5119485,334.589256,,NaN,,,D12,5,320,5,Retrieval,Retrieval,S01
carabiner,Justin Bieber,Steve Jobs,Keira Knightley,0.74,335.3511967,335.4224925,,3,,,D12,5,321,6,Retrieval,Retrieval,S01
carabiner,Justin Bieber,Steve Jobs,Keira Knightley,0.74,335.9785579,336.0558535,,NaN,,,D12,5,322,6,Retrieval,Retrieval,S01
tuba,George Bush,Nicole Kidman,Stephen Hawking,0.69,336.7627329,336.8389658,,4,,,D12,5,323,7,Retrieval,Lure,S01
tuba,George Bush,Nicole Kidman,Stephen Hawking,0.69,337.3788581,337.4555621,,NaN,,,D12,5,324,7,Retrieval,Lure,S01
laptop,Steve Jobs,Nicole Kidman,Keira Knightley,0.5,337.9795346,338.0558206,,2,,,D12,5,325,8,Retrieval,Retrieval,S01
laptop,Steve Jobs,Nicole Kidman,Keira Knightley,0.5,338.6795526,338.755601,,NaN,,,D12,5,326,8,Retrieval,Retrieval,S01
swiss_army_knife,Charlie Chaplin,Oprah Winfrey,Sarah Palin,0.55,339.3246057,339.4056812,,2,,,D12,5,327,9,Retrieval,Retrieval,S01
swiss_army_knife,Charlie Chaplin,Oprah Winfrey,Sarah Palin,0.55,340.0612169,340.1388979,,NaN,,,D12,5,328,9,Retrieval,Retrieval,S01
acoustic_guitar,Jim Carrey,Sarah Palin,Justin Bieber,0.69,340.8442097,340.9221984,,2,,,D12,5,329,10,Retrieval,Retrieval,S01
acoustic_guitar,Jim Carrey,Sarah Palin,Justin Bieber,0.69,341.4888289,341.5719858,,NaN,,,D12,5,330,10,Retrieval,Retrieval,S01
flashlight,Steve Jobs,George Bush,Nicole Kidman,0.67,342.2603718,342.3389082,,4,,,D12,5,331,11,Retrieval,Lure,S01
flashlight,Steve Jobs,George Bush,Nicole Kidman,0.67,343.0271278,343.1055717,,NaN,,,D12,5,332,11,Retrieval,Lure,S01
harp,Taylor Swift,Justin Bieber,Mother Teresa,0.66,343.7742985,343.8554427,,1,,,D12,5,333,12,Retrieval,Retrieval,S01
harp,Taylor Swift,Justin Bieber,Mother Teresa,0.66,344.5456259,344.6218302,,NaN,,,D12,5,334,12,Retrieval,Retrieval,S01
trowel,Stephen Hawking,Nicole Kidman,Mother Teresa,0.72,345.3630268,345.4387086,,3,,,D12,5,335,13,Retrieval,Retrieval,S01
trowel,Stephen Hawking,Nicole Kidman,Mother Teresa,0.72,346.128731,346.2054222,,NaN,,,D12,5,336,13,Retrieval,Retrieval,S01
coin,Keira Knightley,Charlie Chaplin,Stephen Hawking,0.64,346.8554626,346.9386776,,1,,,D12,5,337,14,Retrieval,Retrieval,S01
coin,Keira Knightley,Charlie Chaplin,Stephen Hawking,0.64,347.6956042,347.7717305,,NaN,,,D12,5,338,14,Retrieval,Retrieval,S01
blouse,George Bush,Keira Knightley,Oprah Winfrey,0.67,348.4642896,348.538604,,1,,,D12,5,339,15,Retrieval,Retrieval,S01
blouse,George Bush,Keira Knightley,Oprah Winfrey,0.67,349.1741887,349.2551316,,NaN,,,D12,5,340,15,Retrieval,Retrieval,S01
wheelbarrow,George Bush,Mother Teresa,Taylor Swift,0.73,350.0107249,350.0884921,,4,,,D12,5,341,16,Retrieval,Lure,S01
wheelbarrow,George Bush,Mother Teresa,Taylor Swift,0.73,350.7215766,350.8050762,,NaN,,,D12,5,342,16,Retrieval,Lure,S01
headband,Nicole Kidman,Justin Bieber,Daniel Radcliffe,0.54,351.362641,351.4383906,,1,,,D12,5,343,17,Retrieval,Retrieval,S01
headband,Nicole Kidman,Justin Bieber,Daniel Radcliffe,0.54,352.0715688,352.1548839,,NaN,,,D12,5,344,17,Retrieval,Retrieval,S01
syringe,Robin Williams,Mother Teresa,Oprah Winfrey,0.65,352.8215849,352.9048464,,1,,,D12,5,345,18,Retrieval,Retrieval,S01
syringe,Robin Williams,Mother Teresa,Oprah Winfrey,0.65,353.4714825,353.5555198,,NaN,,,D12,5,346,18,Retrieval,Retrieval,S01
bell,Angela Merkel,NaN,NaN,0.58,367.0877633,367.1711438,NaN,NaN,NaN,,D12,6,347,1,Encoding,NaN,S01
bell,Angela Merkel,NaN,NaN,0.58,367.8711324,367.9544173,,NaN,,,D12,6,348,1,Encoding,NaN,S01
refrigerator,Bill Clinton,NaN,NaN,0.68,368.6545878,368.7374698,NaN,NaN,NaN,,D12,6,349,2,Encoding,NaN,S01
refrigerator,Bill Clinton,NaN,NaN,0.68,369.3050104,369.3874214,,NaN,,,D12,6,350,2,Encoding,NaN,S01
drum_set,Anne Hathaway,NaN,NaN,0.69,370.0877947,370.1712826,NaN,NaN,NaN,,D12,6,351,3,Encoding,NaN,S01
drum_set,Anne Hathaway,NaN,NaN,0.69,370.9207178,371.0040457,,NaN,,,D12,6,352,3,Encoding,NaN,S01
bracelet,Jennifer Aniston,NaN,NaN,0.71,371.7208124,371.8044906,NaN,NaN,NaN,,D12,6,353,4,Encoding,NaN,S01
bracelet,Jennifer Aniston,NaN,NaN,0.71,372.3895978,372.4705881,,NaN,,,D12,6,354,4,Encoding,NaN,S01
drum,Cristiano Ronaldo,NaN,NaN,0.51,372.9873367,373.0707382,NaN,NaN,NaN,,D12,6,355,5,Encoding,NaN,S01
drum,Cristiano Ronaldo,NaN,NaN,0.51,373.7705025,373.8538194,,NaN,,,D12,6,356,5,Encoding,NaN,S01
bar_of_soap,Mark Zuckerberg,NaN,NaN,0.5,374.3707827,374.4549355,NaN,NaN,NaN,,D12,6,357,6,Encoding,NaN,S01
bar_of_soap,Mark Zuckerberg,NaN,NaN,0.5,375.0234875,375.1041138,,NaN,,,D12,6,358,6,Encoding,NaN,S01
telephone,Tony Blair,NaN,NaN,0.56,375.6708383,375.7543457,NaN,NaN,NaN,,D12,6,359,7,Encoding,NaN,S01
telephone,Tony Blair,NaN,NaN,0.56,376.336981,376.4207006,,NaN,,,D12,6,360,7,Encoding,NaN,S01
coffeemaker,Marilyn Monroe,NaN,NaN,0.53,376.9712107,377.0539843,NaN,NaN,NaN,,D12,6,361,8,Encoding,NaN,S01
coffeemaker,Marilyn Monroe,NaN,NaN,0.53,377.5947531,377.6702931,,NaN,,,D12,6,362,8,Encoding,NaN,S01
jukebox,Lindsay Lohan,NaN,NaN,0.71,378.3871827,378.470446,NaN,NaN,NaN,,D12,6,363,9,Encoding,NaN,S01
jukebox,Lindsay Lohan,NaN,NaN,0.71,379.1228576,379.2531818,,NaN,,,D12,6,364,9,Encoding,NaN,S01
mallet,Ellen DeGeneres,NaN,NaN,0.6,379.8545582,379.9378817,NaN,NaN,NaN,,D12,6,365,10,Encoding,NaN,S01
mallet,Ellen DeGeneres,NaN,NaN,0.6,380.6405217,380.8497267,,NaN,,,D12,6,366,10,Encoding,NaN,S01
diaper,Ed Sheeran,NaN,NaN,0.61,381.4544407,381.5374939,NaN,NaN,NaN,,D12,6,367,11,Encoding,NaN,S01
diaper,Ed Sheeran,NaN,NaN,0.61,382.1968964,382.3311819,,NaN,,,D12,6,368,11,Encoding,NaN,S01
cello,Kristen Stewart,NaN,NaN,0.54,382.8706907,382.9538473,NaN,NaN,NaN,,D12,6,369,12,Encoding,NaN,S01
cello,Kristen Stewart,NaN,NaN,0.54,383.5749428,383.6534706,,NaN,,,D12,6,370,12,Encoding,NaN,S01
oven,Jessica Alba,NaN,NaN,0.6,384.2703518,384.3544961,NaN,NaN,NaN,,D12,6,371,13,Encoding,NaN,S01
oven,Jessica Alba,NaN,NaN,0.6,385.0267296,385.1034553,UpArrow,NaN,385.0983463,,D12,6,372,13,Encoding,NaN,S01
boombox,Tobey Maguire,NaN,NaN,0.51,385.6210928,385.7036073,NaN,NaN,NaN,,D12,6,373,14,Encoding,NaN,S01
boombox,Tobey Maguire,NaN,NaN,0.51,386.3698542,386.4534436,,NaN,,,D12,6,374,14,Encoding,NaN,S01
refrigerator,Bill Clinton,Marilyn Monroe,Jessica Alba,0.68,389.1531324,389.2364722,LeftArrow,2,389.2248986,,D12,6,375,1,Retrieval,Retrieval,S01
refrigerator,Bill Clinton,Marilyn Monroe,Jessica Alba,0.68,389.8036387,389.8864506,LeftArrow,NaN,389.878136,,D12,6,376,1,Retrieval,Retrieval,S01
fondue_fork,Kristen Stewart,Ed Sheeran,Jessica Alba,0.68,390.5866076,390.6700165,LeftArrow,4,390.659496,,D12,6,377,2,Retrieval,Lure,S01
fondue_fork,Kristen Stewart,Ed Sheeran,Jessica Alba,0.68,391.3364391,391.4198027,LeftArrow,NaN,391.411135,,D12,6,378,2,Retrieval,Lure,S01
bracelet,Jennifer Aniston,Cristiano Ronaldo,Mark Zuckerberg,0.71,392.1389047,392.2199369,LeftArrow,1,392.2091597,,D12,6,379,3,Retrieval,Retrieval,S01
bracelet,Jennifer Aniston,Cristiano Ronaldo,Mark Zuckerberg,0.71,392.9197892,393.0029124,DownArrow,NaN,392.9931153,,D12,6,380,3,Retrieval,Retrieval,S01
hamster_cage,Tony Blair,Ed Sheeran,Marilyn Monroe,0.65,393.670003,393.7531239,RightArrow,4,393.7421712,,D12,6,381,4,Retrieval,Lure,S01
hamster_cage,Tony Blair,Ed Sheeran,Marilyn Monroe,0.65,394.469696,394.5529854,RightArrow,NaN,394.5432524,,D12,6,382,4,Retrieval,Lure,S01
bar_of_soap,Mark Zuckerberg,Marilyn Monroe,Lindsay Lohan,0.5,395.0697442,395.1528872,RightArrow,3,395.1415108,,D12,6,383,5,Retrieval,Retrieval,S01
bar_of_soap,Mark Zuckerberg,Marilyn Monroe,Lindsay Lohan,0.5,395.8196749,395.9030036,RightArrow,NaN,395.8929084,,D12,6,384,5,Retrieval,Retrieval,S01
drum_set,Anne Hathaway,Bill Clinton,Ed Sheeran,0.69,396.6029336,396.6862442,LeftArrow,2,396.6743649,,D12,6,385,6,Retrieval,Retrieval,S01
drum_set,Anne Hathaway,Bill Clinton,Ed Sheeran,0.69,397.2862241,397.3695668,RightArrow,NaN,397.3585291,,D12,6,386,6,Retrieval,Retrieval,S01
drum,Cristiano Ronaldo,Kristen Stewart,Jessica Alba,0.51,397.8861264,397.9695581,LeftArrow,1,397.9596637,,D12,6,387,7,Retrieval,Retrieval,S01
drum,Cristiano Ronaldo,Kristen Stewart,Jessica Alba,0.51,398.602779,398.6860695,LeftArrow,NaN,398.6760995,,D12,6,388,7,Retrieval,Retrieval,S01
telephone,Tony Blair,Jessica Alba,Mark Zuckerberg,0.56,399.2526463,399.3359867,RightArrow,2,399.3255355,,D12,6,389,8,Retrieval,Retrieval,S01
telephone,Tony Blair,Jessica Alba,Mark Zuckerberg,0.56,399.9861731,400.0700544,LeftArrow,NaN,400.0613711,,D12,6,390,8,Retrieval,Retrieval,S01
bell,Angela Merkel,Tobey Maguire,Jennifer Aniston,0.58,400.6694458,400.7526831,LeftArrow,2,400.7435179,,D12,6,391,9,Retrieval,Retrieval,S01
bell,Angela Merkel,Tobey Maguire,Jennifer Aniston,0.58,401.3196776,401.4029008,RightArrow,NaN,401.3954326,,D12,6,392,9,Retrieval,Retrieval,S01
mallet,Ellen DeGeneres,Anne Hathaway,Bill Clinton,0.6,402.0264861,402.1027036,RightArrow,2,402.0941547,,D12,6,393,10,Retrieval,Retrieval,S01
mallet,Ellen DeGeneres,Anne Hathaway,Bill Clinton,0.6,402.7203985,402.8024652,RightArrow,NaN,402.7936614,,D12,6,394,10,Retrieval,Retrieval,S01
hairdryer,Lindsay Lohan,Angela Merkel,Ellen DeGeneres,0.57,403.3858753,403.4691235,DownArrow,4,403.4609183,,D12,6,395,11,Retrieval,Lure,S01
hairdryer,Lindsay Lohan,Angela Merkel,Ellen DeGeneres,0.57,404.1359562,404.2192735,RightArrow,NaN,404.2106544,,D12,6,396,11,Retrieval,Lure,S01
jukebox,Lindsay Lohan,Ed Sheeran,Jessica Alba,0.71,404.9358186,405.0190908,RightArrow,1,405.0095379,,D12,6,397,12,Retrieval,Retrieval,S01
jukebox,Lindsay Lohan,Ed Sheeran,Jessica Alba,0.71,405.5856752,405.669049,LeftArrow,NaN,405.6609614,,D12,6,398,12,Retrieval,Retrieval,S01
oven,Jessica Alba,Marilyn Monroe,Cristiano Ronaldo,0.6,406.2858782,406.3691735,RightArrow,2,406.360403,,D12,6,399,13,Retrieval,Retrieval,S01
oven,Jessica Alba,Marilyn Monroe,Cristiano Ronaldo,0.6,407.0191082,407.1022252,LeftArrow,NaN,407.0952314,,D12,6,400,13,Retrieval,Retrieval,S01
coffeemaker,Marilyn Monroe,Mark Zuckerberg,Cristiano Ronaldo,0.53,407.6554427,407.7357808,RightArrow,2,407.7268721,,D12,6,401,14,Retrieval,Retrieval,S01
coffeemaker,Marilyn Monroe,Mark Zuckerberg,Cristiano Ronaldo,0.53,408.3524078,408.4356577,LeftArrow,NaN,408.4294577,,D12,6,402,14,Retrieval,Retrieval,S01
frying_pan,Anne Hathaway,Bill Clinton,Mark Zuckerberg,0.64,409.0856708,409.1689316,LeftArrow,4,409.1594548,,D12,6,403,15,Retrieval,Lure,S01
frying_pan,Anne Hathaway,Bill Clinton,Mark Zuckerberg,0.64,409.7729892,409.8523441,LeftArrow,NaN,409.8460973,,D12,6,404,15,Retrieval,Lure,S01
diaper,Ed Sheeran,Tobey Maguire,Jennifer Aniston,0.61,410.4689642,410.5521489,LeftArrow,1,410.5436153,,D12,6,405,16,Retrieval,Retrieval,S01
diaper,Ed Sheeran,Tobey Maguire,Jennifer Aniston,0.61,411.0688929,411.1523153,LeftArrow,NaN,411.1467215,,D12,6,406,16,Retrieval,Retrieval,S01
cello,Kristen Stewart,Tony Blair,Ellen DeGeneres,0.54,411.7024034,411.7860746,LeftArrow,3,411.7781928,,D12,6,407,17,Retrieval,Retrieval,S01
cello,Kristen Stewart,Tony Blair,Ellen DeGeneres,0.54,412.4719711,412.5521359,,NaN,,,D12,6,408,17,Retrieval,Retrieval,S01
boombox,Tobey Maguire,Ed Sheeran,Anne Hathaway,0.51,413.0687705,413.1520721,RightArrow,1,413.1473655,,D12,6,409,18,Retrieval,Retrieval,S01
boombox,Tobey Maguire,Ed Sheeran,Anne Hathaway,0.51,413.8388095,413.9257978,,NaN,,,D12,6,410,18,Retrieval,Retrieval,S01
