object,target,lure1,lure2,baseline,trial_type,retrieval_type,encoding_onset,encoding_end,elaborate_onset,elaborate_end,elaborate_response,elaborate_rt,fc_onset,fc_end,fc_response,fc_rt,recall_onset,recall_end,recall_response,recall_rt
snowflake,Angelina Jolie,Bruce Willis,Robert De Niro,0.61,Encoding,Encoding,10.9578452999704,11.0406271999236,11.7622916999971,11.8232225000393,,,,,,,,,,
whistle,Bruce Willis,Robert De Niro,Daniel Craig,0.5,Encoding,Encoding,12.3408684999449,12.424196899985,13.1470085999463,13.2233487999765,,,,,,,,,,
armor,Daniel Craig,Robert De Niro,Bruce Willis,0.5,Encoding,Encoding,13.741125099943,13.8242622999242,14.5566156000132,14.639775199932,,,,,,,,,,
violin,Lady Diana,Robert De Niro,Daniel Craig,0.66,Encoding,Encoding,15.3233833999839,15.4063979999628,15.9396774999332,16.0230130000273,,,,,,,,,,
sarcophagus,Robert De Niro,Daniel Craig,Bruce Willis,0.55,Encoding,Encoding,16.5896941999672,16.6730637999717,17.2900245999917,17.3731373000192,,,,,,,,,,
handcuff,Lady Diana,Bruce Willis,Angelina Jolie,0.5,Retrieval,Lure,,,,,,,24.969624600024,25.0396034999285,,,25.7916212999262,25.8729007999646,,
candle,Daniel Craig,Bruce Willis,Angelina Jolie,0.54,Retrieval,Lure,,,,,,,26.4250421000179,26.5059897999745,,,27.0656056000153,27.139127900009,,
violin,Lady Diana,Robert De Niro,Daniel Craig,0.66,Retrieval,Retrieval,,,,,,,27.8270559000084,27.905864499975,,,28.4637920999667,28.5391163999448,,
tape,Lady Diana,Daniel Craig,Robert De Niro,0.53,Retrieval,Lure,,,,,,,29.093127500033,29.1725530999247,,,29.8315155999735,29.9057459000032,,
whistle,Bruce Willis,Robert De Niro,Daniel Craig,0.5,Retrieval,Retrieval,,,,,,,30.4308314999798,30.5056719999993,,,31.0664544999599,31.1389986999566,,
snowflake,Angelina Jolie,Bruce Willis,Robert De Niro,0.61,Retrieval,Retrieval,,,,,,,31.7772901999997,31.8558295000112,,,32.3956631999463,32.4721638000337,,
armor,Daniel Craig,Robert De Niro,Bruce Willis,0.5,Retrieval,Retrieval,,,,,,,32.9890003999462,33.072449499974,,,33.7142174999462,33.78897340002,,
sarcophagus,Robert De Niro,Daniel Craig,Bruce Willis,0.55,Retrieval,Retrieval,,,,,,,34.3556805999251,34.4389259000309,,,34.994299300015,35.0721739999717,,
dragon_statue,Queen Elizabeth,Hugh Grant,Brad Pitt,0.55,Encoding,Encoding,11.9412144999951,12.0243663999718,12.7493891000049,12.8235909000505,,,,,,,,,,
cash_register,John Kennedy,Zac Effron,Queen Elizabeth,0.65,Encoding,Encoding,13.4903178999666,13.5736907999963,14.1904505999992,14.2735371000599,,,,,,,,,,
swimsuit,Hugh Grant,Brad Pitt,Zac Effron,0.56,Encoding,Encoding,14.8575880000135,14.9406000999734,15.523593800026,15.6070517000044,,,,,,,,,,
saltshaker,Zac Effron,Brad Pitt,Charlize Therone,0.63,Encoding,Encoding,16.2568855000427,16.3402812000131,16.9568394999951,17.0403942000121,,,,,,,,,,
flower_pot,Brad Pitt,Zac Effron,Queen Elizabeth,0.65,Encoding,Encoding,17.7079368999694,17.7910786999855,18.3293660000199,18.4070010000141,,,,,,,,,,
yarn,Dwayne Johnson,Zac Effron,Chris Hemsworth,0.52,Encoding,Encoding,18.9411830999888,19.0243043999653,19.5813562000403,19.6566280999687,,,,,,,,,,
pot_of_gold,Drake Graham,Hugh Grant,Zac Effron,0.63,Encoding,Encoding,20.3067047999939,20.3903968000086,21.1495675999904,21.223438099958,,,,,,,,,,
lantern,Morgan Freeman,Condoliza Rice,Chris Hemsworth,0.72,Encoding,Encoding,21.9568643999519,22.0414093000581,22.7950547999935,22.8734267000109,,,,,,,,,,
razor,Paris Hilton,Brad Pitt,Chris Hemsworth,0.74,Encoding,Encoding,23.6242265000474,23.7076410000445,24.3616001999471,24.4400455000577,,,,,,,,,,
money,Condoliza Rice,John Kennedy,Chris Hemsworth,0.53,Encoding,Encoding,24.9909741999581,25.0739774999674,25.6129349999828,25.6902188999811,,,,,,,,,,
crowbar,Chris Hemsworth,Morgan Freeman,Brad Pitt,0.55,Encoding,Encoding,26.2575285000494,26.3410044000484,26.9304473999655,27.006579900044,,,,,,,,,,
chainsaw,Mark Walberg,Chris Hemsworth,Hugh Grant,0.64,Encoding,Encoding,27.657458200003,27.7402720999671,28.3480935000116,28.4230952999787,,,,,,,,,,
totem_pole,Charlize Therone,John Kennedy,Queen Elizabeth,0.75,Encoding,Encoding,29.1904639999848,29.2739557999885,30.0095325000584,30.0896840000059,,,,,,,,,,
pocket_watch,Robert Pattinson,Dwayne Johnson,Hugh Grant,0.59,Encoding,Encoding,30.6907878000056,30.7739514999557,31.2986408000579,31.3728514000541,,,,,,,,,,
pot_of_gold,Drake Graham,Hugh Grant,Zac Effron,0.63,Retrieval,Retrieval,,,,,,,34.0298021000344,34.1061499000061,,,34.814178999979,34.8895771000534,,
trumpet,Charlize Therone,Condoliza Rice,Zac Effron,0.58,Retrieval,Lure,,,,,,,35.4918706000317,35.5729043000611,,,36.1642496000277,36.2394873000449,,
flower_pot,Brad Pitt,Zac Effron,Queen Elizabeth,0.65,Retrieval,Retrieval,,,,,,,36.9109014000278,36.9895991999656,,,37.56392710004,37.639660899993,,
swimsuit,Hugh Grant,Brad Pitt,Zac Effron,0.56,Retrieval,Retrieval,,,,,,,38.2278582999716,38.3063253000146,,,38.8460308000213,38.9230037999805,,
yarn,Dwayne Johnson,Zac Effron,Chris Hemsworth,0.52,Retrieval,Retrieval,,,,,,,39.4619378000498,39.5394678000594,,,40.1776638999581,40.2561366000446,,
stroller,Condoliza Rice,Charlize Therone,Drake Graham,0.57,Retrieval,Lure,,,,,,,40.8426018999889,40.9228444000473,,,41.5813016999746,41.6557294999948,,
saltshaker,Zac Effron,Brad Pitt,Charlize Therone,0.63,Retrieval,Retrieval,,,,,,,42.3086861000629,42.3891845999751,,,42.9987072000513,43.0724733000388,,
dragon_statue,Queen Elizabeth,Hugh Grant,Brad Pitt,0.55,Retrieval,Retrieval,,,,,,,43.6420323000057,43.7223827999551,,,44.4801263000118,44.5555721999845,,
cash_register,John Kennedy,Zac Effron,Queen Elizabeth,0.65,Retrieval,Retrieval,,,,,,,45.2258296000073,45.3056902999524,,,45.9807231000159,46.0557807000587,,
lantern,Morgan Freeman,Condoliza Rice,Chris Hemsworth,0.72,Retrieval,Retrieval,,,,,,,46.7887450000271,46.872061299975,,,47.4554470999865,47.5387432000134,,
pick,Robert Pattinson,Hugh Grant,Mark Walberg,0.63,Retrieval,Lure,,,,,,,48.1886706999503,48.2719577000244,,,48.8283396000043,48.9055181000149,,
money,Condoliza Rice,John Kennedy,Chris Hemsworth,0.53,Retrieval,Retrieval,,,,,,,49.458542300039,49.5388243000489,,,50.2885220999597,50.3717727999901,,
crowbar,Chris Hemsworth,Morgan Freeman,Brad Pitt,0.55,Retrieval,Retrieval,,,,,,,50.9437659999821,51.0222766000079,,,51.7797060000012,51.855407700059,,
beret,Robert Pattinson,Chris Hemsworth,Zac Effron,0.61,Retrieval,Lure,,,,,,,52.4932855999796,52.5721015000017,,,53.1931391999824,53.2720415999647,,
razor,Paris Hilton,Brad Pitt,Chris Hemsworth,0.74,Retrieval,Retrieval,,,,,,,54.0257311000023,54.1053276000312,,,54.8141121000517,54.8886856000172,,
chainsaw,Mark Walberg,Chris Hemsworth,Hugh Grant,0.64,Retrieval,Retrieval,,,,,,,55.5430857000174,55.62166970002,,,56.2317486000247,56.305050099967,,
pocket_watch,Robert Pattinson,Dwayne Johnson,Hugh Grant,0.59,Retrieval,Retrieval,,,,,,,56.9085511000594,56.988380099996,,,57.5813639999833,57.6549907999579,,
totem_pole,Charlize Therone,John Kennedy,Queen Elizabeth,0.75,Retrieval,Retrieval,,,,,,,58.4274462000467,58.504984500003,,,59.2143157999963,59.2883997999597,,
